"Time (s)","Acceleration x (m/s^2)","Acceleration y (m/s^2)","Acceleration z (m/s^2)"
0.000000000E0,-1.529999971E-1,1.684999943E0,9.194000244E0
1.000000000E0,-2.290000021E-1,1.340000033E0,9.692000389E0
2.000000000E0,-1.529999971E-1,1.340000033E0,9.692000389E0
3.000000000E0,-1.140000001E-1,1.225000024E0,9.500000000E0
4.000000000E0,-3.799999878E-2,1.187000036E0,9.652999878E0
5.000000000E0,-1.909999996E-1,1.455000043E0,9.729999542E0
6.000000000E0,7.599999756E-2,1.149000049E0,9.920999527E0
7.000000000E0,-1.140000001E-1,1.264000058E0,9.538000107E0
8.000000000E0,-2.680000067E-1,1.417000055E0,9.692000389E0
9.000000000E0,-3.440000117E-1,1.378999949E0,9.807000160E0
1.000000000E1,-2.290000021E-1,1.455000043E0,9.461999893E0
1.100000000E1,-1.909999996E-1,1.225000024E0,9.692000389E0
1.200000000E1,-3.799999878E-2,1.264000058E0,9.767999649E0
1.300000000E1,-3.799999878E-2,1.072000027E0,9.998000145E0
1.400000000E1,-1.140000001E-1,1.187000036E0,9.920999527E0
1.500000000E1,-1.909999996E-1,1.264000058E0,9.461999893E0
1.600000000E1,7.599999756E-2,1.072000027E0,9.692000389E0
1.700000000E1,-1.140000001E-1,1.340000033E0,9.576999664E0
1.800000000E1,-1.529999971E-1,1.302000046E0,9.500000000E0
1.900000000E1,-1.909999996E-1,1.225000024E0,9.652999878E0
2.000000000E1,-1.909999996E-1,1.455000043E0,9.385000229E0
2.100000000E1,-2.680000067E-1,9.570000172E-1,9.807000160E0
2.200000000E1,-9.570000172E-1,4.210000038E-1,9.998000145E0
2.300000000E1,-7.599999756E-2,2.029999971E0,8.656999588E0
2.400000000E1,-2.290000021E-1,-5.360000134E-1,8.619000435E0
2.500000000E1,1.529999971E-1,4.210000038E-1,9.079000473E0
2.600000000E1,-4.979999959E-1,2.298000097E0,1.222000027E1
2.700000000E1,-1.909999996E-1,2.144999981E0,8.887000084E0
2.800000000E1,2.290000021E-1,1.914999962E0,7.163000107E0
2.900000000E1,-7.659999728E-1,6.510000229E-1,9.079000473E0
3.000000000E1,-1.646999955E0,-3.829999864E-1,1.022799969E1
3.100000000E1,-1.187000036E0,3.059999943E-1,9.845000267E0
3.200000000E1,-2.335999966E0,8.040000200E-1,1.225800037E1
3.300000000E1,-3.799999878E-2,-8.040000200E-1,1.310099983E1
3.400000000E1,2.290000021E-1,6.119999886E-1,1.122399998E1
3.500000000E1,-1.909999996E-1,7.269999981E-1,1.191300011E1
3.600000000E1,4.210000038E-1,8.809999824E-1,1.091699982E1
3.700000000E1,-7.599999756E-2,1.455000043E0,9.729999542E0
3.800000000E1,-2.680000067E-1,1.761999965E0,1.018999958E1
3.900000000E1,7.599999756E-2,1.455000043E0,8.197999954E0
4.000000000E1,2.680000067E-1,8.420000076E-1,8.503999710E0
4.100000000E1,-8.809999824E-1,1.302000046E0,8.043999672E0
4.200000000E1,-7.599999756E-2,4.589999914E-1,9.423000336E0
4.300000000E1,1.149000049E0,5.740000010E-1,9.039999962E0
4.400000000E1,5.360000134E-1,2.680000067E-1,1.018999958E1
4.500000000E1,7.269999981E-1,1.264000058E0,1.168400002E1
4.600000000E1,7.599999756E-2,1.531999946E0,1.118599987E1
4.700000000E1,-8.040000200E-1,1.493999958E0,1.114700031E1
4.800000000E1,3.799999878E-2,1.761999965E0,9.500000000E0
4.900000000E1,3.799999878E-2,1.340000033E0,8.005999565E0
5.000000000E1,0.000000000E0,1.531999946E0,6.742000103E0
5.100000000E1,-8.040000200E-1,6.119999886E-1,8.772000313E0
5.200000000E1,-7.269999981E-1,-4.589999914E-1,1.015100002E1
5.300000000E1,-8.420000076E-1,8.040000200E-1,1.233500004E1
5.400000000E1,4.979999959E-1,1.838000059E0,1.133899975E1
5.500000000E1,-1.140000001E-1,1.570000052E0,9.807000160E0
5.600000000E1,3.799999878E-2,2.144999981E0,8.734000206E0
5.700000000E1,1.140000001E-1,1.110000014E0,8.043999672E0
5.800000000E1,7.599999756E-2,9.570000172E-1,6.664999962E0
5.900000000E1,1.909999996E-1,-3.799999878E-2,9.500000000E0
6.000000000E1,-4.210000038E-1,1.909999996E-1,1.152999973E1
6.100000000E1,0.000000000E0,-4.979999959E-1,1.160700035E1
6.200000000E1,1.140000001E-1,1.264000058E0,1.072599983E1
6.300000000E1,-6.510000229E-1,4.979999959E-1,1.137699986E1
6.400000000E1,-3.059999943E-1,1.264000058E0,1.007499981E1
6.500000000E1,-3.440000117E-1,1.417000055E0,9.729999542E0
6.600000000E1,-7.599999756E-2,6.510000229E-1,8.963999748E0
6.700000000E1,-1.140000001E-1,1.110000014E0,6.894999981E0
6.800000000E1,2.290000021E-1,8.809999824E-1,7.507999897E0
6.900000000E1,1.529999971E-1,3.799999878E-2,1.041899967E1
7.000000000E1,-6.119999886E-1,-3.799999878E-2,1.294799995E1
7.100000000E1,5.740000010E-1,9.959999919E-1,1.172200012E1
7.200000000E1,-3.799999878E-2,1.531999946E0,9.500000000E0
7.300000000E1,3.059999943E-1,1.110000014E0,8.350999832E0
7.400000000E1,2.680000067E-1,9.570000172E-1,7.469999790E0
7.500000000E1,3.829999864E-1,7.269999981E-1,6.703999996E0
7.600000000E1,2.290000021E-1,3.799999878E-2,9.500000000E0
7.700000000E1,5.360000134E-1,8.040000200E-1,8.734000206E0
7.800000000E1,7.659999728E-1,1.909999996E-1,1.149199963E1
7.900000000E1,-4.210000038E-1,1.378999949E0,1.110900021E1
8.000000000E1,-5.740000010E-1,1.149000049E0,1.064900017E1
8.100000000E1,-3.440000117E-1,7.269999981E-1,9.920999527E0
8.200000000E1,2.680000067E-1,7.269999981E-1,7.660999775E0
8.300000000E1,1.909999996E-1,-2.290000021E-1,9.270000458E0
8.400000000E1,-1.140000001E-1,-9.570000172E-1,1.099400043E1
8.500000000E1,1.140000001E-1,1.140000001E-1,1.206700039E1
8.600000000E1,8.809999824E-1,9.190000296E-1,1.229699993E1
8.700000001E1,3.829999864E-1,1.952999949E0,9.692000389E0
8.800000001E1,2.290000021E-1,6.510000229E-1,9.692000389E0
8.900000001E1,1.140000001E-1,1.187000036E0,8.005999565E0
9.000000001E1,-3.440000117E-1,5.740000010E-1,9.347000122E0
9.100000001E1,8.420000076E-1,8.420000076E-1,9.232000351E0
9.200000001E1,3.799999878E-2,1.723000050E0,1.084099960E1
9.300000001E1,0.000000000E0,2.068000078E0,9.845000267E0
9.400000001E1,-1.140000001E-1,1.187000036E0,8.772000313E0
9.500000001E1,1.909999996E-1,1.149000049E0,7.853000164E0
9.600000001E1,7.599999756E-2,2.290000021E-1,8.350999832E0
9.700000001E1,-8.040000200E-1,1.264000058E0,1.118599987E1
9.800000001E1,1.529999971E-1,1.302000046E0,1.237300014E1
9.900000001E1,0.000000000E0,1.914999962E0,9.767999649E0
1.000000000E2,1.140000001E-1,1.646999955E0,7.660999775E0
1.010000000E2,-3.799999878E-2,9.190000296E-1,7.277999878E0
1.020000000E2,6.890000105E-1,-4.210000038E-1,9.232000351E0
1.030000000E2,6.510000229E-1,-4.210000038E-1,1.107100010E1
1.040000000E2,1.909999996E-1,1.072000027E0,1.160700035E1
1.050000000E2,-7.599999756E-2,1.991999984E0,9.232000351E0
1.060000000E2,-3.799999878E-2,1.264000058E0,8.541999817E0
1.070000000E2,0.000000000E0,1.378999949E0,7.163000107E0
1.080000000E2,-5.360000134E-1,-2.290000021E-1,9.614999771E0
1.090000000E2,-6.119999886E-1,-1.110000014E0,9.920999527E0
1.100000000E2,-7.269999981E-1,4.979999959E-1,1.041899967E1
1.110000000E2,-8.420000076E-1,-7.269999981E-1,1.313899994E1
1.120000000E2,-7.269999981E-1,1.302000046E0,1.149199963E1
1.130000000E2,3.059999943E-1,1.876999974E0,9.116999626E0
1.140000000E2,-1.909999996E-1,1.799999952E0,8.350999832E0
1.150000000E2,-1.529999971E-1,1.378999949E0,8.159000397E0
1.160000000E2,1.529999971E-1,-3.799999878E-2,9.270000458E0
1.170000000E2,9.190000296E-1,4.210000038E-1,9.767999649E0
1.180000000E2,3.829999864E-1,1.072000027E0,1.118599987E1
1.190000000E2,-1.140000001E-1,1.417000055E0,1.114700031E1
1.200000000E2,-1.140000001E-1,1.608000040E0,8.925000191E0
1.210000000E2,-2.290000021E-1,1.340000033E0,8.581000328E0
1.220000000E2,-3.799999878E-2,9.190000296E-1,7.431000233E0
1.230000000E2,-8.809999824E-1,3.829999864E-1,8.465999603E0
1.240000000E2,3.059999943E-1,-3.059999943E-1,8.772000313E0
1.250000000E2,3.059999943E-1,-1.187000036E0,1.176000023E1
1.260000000E2,4.589999914E-1,9.570000172E-1,1.099400043E1
1.270000000E2,4.210000038E-1,1.034000039E0,1.057299995E1
1.280000000E2,1.529999971E-1,4.589999914E-1,1.011299992E1
1.290000000E2,1.909999996E-1,1.149000049E0,8.121000290E0
1.300000000E2,3.829999864E-1,-1.529999971E-1,8.772000313E0
1.310000000E2,6.510000229E-1,5.360000134E-1,8.427000046E0
1.320000000E2,3.799999878E-2,-1.034000039E0,1.183699989E1
1.330000000E2,4.210000038E-1,1.225000024E0,1.011299992E1
1.340000000E2,2.680000067E-1,9.959999919E-1,1.080300045E1
1.350000000E2,2.680000067E-1,6.890000105E-1,9.538000107E0
1.360000000E2,3.440000117E-1,2.680000067E-1,8.236000061E0
1.370000000E2,-3.440000117E-1,-2.290000021E-1,8.541999817E0
1.380000000E2,-2.290000021E-1,7.269999981E-1,7.853000164E0
1.390000000E2,-1.378999949E0,-7.599999756E-2,1.137699986E1
1.400000000E2,-3.799999878E-2,-3.059999943E-1,1.214299965E1
1.410000000E2,1.140000001E-1,8.809999824E-1,1.064900017E1
1.420000000E2,3.799999878E-2,1.149000049E0,9.767999649E0
1.430000000E2,-7.599999756E-2,7.659999728E-1,9.423000336E0
1.440000000E2,-6.890000105E-1,1.187000036E0,7.776000023E0
1.450000000E2,1.909999996E-1,-4.979999959E-1,9.079000473E0
1.460000000E2,4.210000038E-1,1.455000043E0,8.887000084E0
1.470000000E2,-2.680000067E-1,1.140000001E-1,1.164500046E1
1.480000000E2,-8.420000076E-1,2.335999966E0,1.076399994E1
1.490000000E2,-6.510000229E-1,1.684999943E0,1.107100010E1
1.500000000E2,-7.599999756E-2,1.225000024E0,9.116999626E0
1.510000000E2,-3.059999943E-1,9.190000296E-1,8.541999817E0
1.520000000E2,-1.529999971E-1,5.740000010E-1,8.541999817E0
1.530000000E2,-3.829999864E-1,-3.440000117E-1,1.041899967E1
1.540000000E2,-8.420000076E-1,1.302000046E0,1.080300045E1
1.550000000E2,2.680000067E-1,1.072000027E0,1.103199959E1
1.560000000E2,0.000000000E0,1.149000049E0,9.883000374E0
1.570000000E2,-3.829999864E-1,1.570000052E0,8.734000206E0
1.580000000E2,1.909999996E-1,7.659999728E-1,7.853000164E0
1.590000000E2,3.829999864E-1,-1.909999996E-1,9.232000351E0
1.600000000E2,6.119999886E-1,-1.140000001E-1,1.053400040E1
1.610000000E2,2.680000067E-1,9.190000296E-1,1.149199963E1
1.620000000E2,0.000000000E0,1.264000058E0,1.015100002E1
1.630000000E2,3.829999864E-1,1.187000036E0,8.656999588E0
1.640000000E2,3.829999864E-1,7.269999981E-1,7.776000023E0
1.650000000E2,-3.059999943E-1,3.799999878E-2,7.928999901E0
1.660000000E2,-4.210000038E-1,-7.269999981E-1,1.087899971E1
1.670000000E2,7.599999756E-2,1.072000027E0,1.061100006E1
1.680000000E2,1.140000001E-1,1.531999946E0,1.064900017E1
1.690000000E2,3.059999943E-1,8.040000200E-1,9.039999962E0
1.700000000E2,-3.440000117E-1,1.302000046E0,7.355000019E0
1.710000000E2,9.959999919E-1,4.589999914E-1,8.465999603E0
1.720000000E2,-1.140000001E-1,4.210000038E-1,1.022799969E1
1.730000000E2,-4.979999959E-1,1.646999955E0,1.076399994E1
1.740000000E2,-4.979999959E-1,1.991999984E0,1.068799973E1
1.750000000E2,3.799999878E-2,1.264000058E0,8.619000435E0
1.760000000E2,-1.529999971E-1,1.264000058E0,7.776000023E0
1.770000000E2,0.000000000E0,-1.529999971E-1,8.312000275E0
1.780000000E2,4.589999914E-1,5.740000010E-1,7.737999916E0
1.790000000E2,-4.979999959E-1,-7.599999756E-2,8.274000168E0
1.800000000E2,-7.269999981E-1,2.290000021E-1,1.003600025E1
1.810000000E2,-7.269999981E-1,4.979999959E-1,1.114700031E1
1.820000000E2,1.140000001E-1,1.493999958E0,1.099400043E1
1.830000000E2,4.589999914E-1,1.225000024E0,1.114700031E1
1.840000000E2,6.119999886E-1,4.979999959E-1,9.652999878E0
1.850000000E2,7.599999756E-2,1.110000014E0,8.236000061E0
1.860000000E2,1.909999996E-1,6.510000229E-1,7.163000107E0
1.870000000E2,2.680000067E-1,-6.890000105E-1,9.001999855E0
1.880000000E2,1.149000049E0,-1.909999996E-1,9.154999733E0
1.890000000E2,2.680000067E-1,0.000000000E0,1.049600029E1
1.900000000E2,-3.829999864E-1,0.000000000E0,1.206700039E1
1.910000000E2,-2.290000021E-1,9.959999919E-1,1.076399994E1
1.920000000E2,-7.599999756E-2,9.190000296E-1,1.034300041E1
1.930000000E2,1.909999996E-1,6.890000105E-1,8.388999939E0
1.940000000E2,-2.680000067E-1,7.269999981E-1,7.776000023E0
1.950000000E2,-1.529999971E-1,-3.799999878E-2,8.656999588E0
1.960000000E2,-1.110000014E0,8.420000076E-1,1.045800018E1
1.970000000E2,-1.034000039E0,7.599999756E-2,1.252600002E1
1.980000000E2,2.290000021E-1,1.838000059E0,1.168400002E1
1.990000000E2,1.909999996E-1,1.570000052E0,9.998000145E0
2.000000000E2,-2.290000021E-1,1.570000052E0,8.810000420E0
2.010000000E2,-3.440000117E-1,1.417000055E0,7.431000233E0
2.020000000E2,-4.589999914E-1,1.340000033E0,7.277999878E0
2.030000000E2,1.110000014E0,1.529999971E-1,8.427000046E0
2.040000000E2,2.680000067E-1,4.589999914E-1,1.061100006E1
2.050000000E2,-5.740000010E-1,8.040000200E-1,1.114700031E1
2.060000000E2,-2.680000067E-1,1.072000027E0,9.729999542E0
2.070000000E2,-1.378999949E0,-2.680000067E-1,1.072599983E1
2.080000000E2,4.589999914E-1,1.264000058E0,9.232000351E0
2.090000000E2,2.680000067E-1,1.140000001E-1,8.159000397E0
2.100000000E2,-7.269999981E-1,2.068000078E0,1.107100010E1
2.110000000E2,-1.529999971E-1,1.608000040E0,1.007499981E1
2.120000000E2,7.269999981E-1,1.455000043E0,8.696000099E0
2.130000000E2,1.529999971E-1,1.608000040E0,6.664999962E0
2.140000000E2,-7.599999756E-2,7.269999981E-1,7.393000126E0
2.150000000E2,-1.149000049E0,1.340000033E0,1.141499996E1
2.160000000E2,4.210000038E-1,2.490000010E0,1.084099960E1
2.170000000E2,-7.599999756E-2,2.375000000E0,9.729999542E0
2.180000000E2,-2.680000067E-1,2.144999981E0,8.043999672E0
2.190000000E2,6.510000229E-1,2.290000021E-1,9.614999771E0
2.200000000E2,3.799999878E-2,7.659999728E-1,9.652999878E0
2.210000000E2,-1.034000039E0,1.340000033E0,1.214299965E1
2.220000000E2,-1.991999984E0,2.565999985E0,1.007499981E1
2.230000000E2,-6.119999886E-1,1.302000046E0,8.810000420E0
2.240000000E2,-9.190000296E-1,1.529999971E-1,8.925000191E0
2.250000000E2,-8.809999824E-1,-6.510000229E-1,9.116999626E0
2.260000000E2,-8.809999824E-1,1.302000046E0,1.084099960E1
2.270000000E2,3.799999878E-2,1.838000059E0,9.307999611E0
2.280000000E2,1.529999971E-1,1.646999955E0,7.890999794E0
2.290000000E2,3.440000117E-1,-1.140000001E-1,8.388999939E0
2.300000000E2,1.570000052E0,-1.909999996E-1,9.500000000E0
2.310000000E2,1.225000024E0,1.149000049E0,1.091699982E1
2.320000000E2,-5.360000134E-1,2.259999990E0,9.538000107E0
2.330000000E2,0.000000000E0,2.068000078E0,7.163000107E0
2.340000000E2,-3.059999943E-1,3.829999864E-1,8.772000313E0
2.350000000E2,-2.680000067E-1,7.599999756E-2,1.003600025E1
2.360000000E2,5.740000010E-1,8.040000200E-1,1.107100010E1
2.370000000E2,3.059999943E-1,1.493999958E0,8.696000099E0
2.380000000E2,-4.210000038E-1,1.110000014E0,7.737999916E0
2.390000000E2,2.680000067E-1,4.210000038E-1,8.541999817E0
2.400000000E2,3.440000117E-1,4.210000038E-1,1.110900021E1
2.410000000E2,-8.040000200E-1,1.991999984E0,1.064900017E1
2.420000000E2,-3.059999943E-1,1.264000058E0,9.194000244E0
2.430000000E2,1.140000001E-1,6.119999886E-1,8.274000168E0
2.440000000E2,-1.034000039E0,4.210000038E-1,8.887000084E0
2.450000000E2,-6.510000229E-1,1.493999958E0,1.080300045E1
2.460000000E2,0.000000000E0,1.302000046E0,9.385000229E0
2.470000000E2,3.799999878E-2,8.040000200E-1,8.656999588E0
2.480000000E2,-3.059999943E-1,-4.589999914E-1,9.307999611E0
2.490000000E2,-3.829999864E-1,3.059999943E-1,1.076399994E1
2.500000000E2,-1.529999971E-1,1.034000039E0,1.275599957E1
2.510000000E2,-1.140000001E-1,1.914999962E0,9.883000374E0
2.520000000E2,-2.290000021E-1,2.029999971E0,7.737999916E0
2.530000000E2,6.510000229E-1,-3.829999864E-1,8.887000084E0
2.540000000E2,-5.360000134E-1,-2.680000067E-1,9.154999733E0
2.550000000E2,-6.890000105E-1,7.269999981E-1,1.030500031E1
2.560000000E2,-1.140000001E-1,1.417000055E0,1.095600033E1
2.570000000E2,-3.799999878E-2,1.914999962E0,9.232000351E0
2.580000000E2,2.290000021E-1,1.187000036E0,8.005999565E0
2.590000000E2,3.799999878E-2,6.890000105E-1,8.350999832E0
2.600000000E2,2.680000067E-1,8.040000200E-1,9.154999733E0
2.610000000E2,6.119999886E-1,7.599999756E-2,1.126200008E1
2.620000000E2,2.290000021E-1,6.119999886E-1,1.168400002E1
2.630000000E2,-1.909999996E-1,1.761999965E0,1.034300041E1
2.640000000E2,3.799999878E-2,1.302000046E0,9.154999733E0
2.650000000E2,1.529999971E-1,1.608000040E0,7.585000038E0
2.660000000E2,3.799999878E-2,4.979999959E-1,8.541999817E0
2.670000000E2,-6.510000229E-1,1.529999971E-1,9.576999664E0
2.680000000E2,-8.809999824E-1,4.210000038E-1,1.225800037E1
2.690000000E2,1.140000001E-1,3.799999878E-2,1.202799988E1
2.700000000E2,5.360000134E-1,8.040000200E-1,9.307999611E0
2.710000000E2,-1.909999996E-1,1.493999958E0,8.159000397E0
2.720000000E2,-1.909999996E-1,1.140000001E-1,9.079000473E0
2.730000000E2,9.190000296E-1,3.440000117E-1,9.767999649E0
2.740000000E2,1.140000001E-1,6.119999886E-1,1.202799988E1
2.750000000E2,-1.909999996E-1,1.302000046E0,1.030500031E1
2.760000000E2,3.799999878E-2,1.302000046E0,9.385000229E0
2.770000000E2,-2.290000021E-1,1.302000046E0,7.853000164E0
2.780000000E2,-5.740000010E-1,6.890000105E-1,8.963999748E0
2.790000000E2,0.000000000E0,1.034000039E0,1.087899971E1
2.800000000E2,2.290000021E-1,1.761999965E0,9.960000038E0
2.810000000E2,8.420000076E-1,1.034000039E0,8.772000313E0
2.820000000E2,3.829999864E-1,-3.799999878E-2,8.925000191E0
2.830000000E2,3.799999878E-2,-3.799999878E-2,1.084099960E1
2.840000000E2,7.599999756E-2,9.959999919E-1,1.103199959E1
2.850000000E2,-1.140000001E-1,1.914999962E0,9.347000122E0
2.860000000E2,-1.909999996E-1,3.440000117E-1,8.887000084E0
2.870000000E2,-1.072000027E0,0.000000000E0,1.114700031E1
2.880000000E2,2.290000021E-1,1.838000059E0,1.099400043E1
2.890000000E2,2.290000021E-1,9.959999919E-1,8.503999710E0
2.900000000E2,1.140000001E-1,-7.599999756E-2,8.581000328E0
2.910000000E2,8.040000200E-1,-3.799999878E-2,9.807000160E0
2.920000000E2,0.000000000E0,1.608000040E0,1.133899975E1
2.930000000E2,-4.589999914E-1,1.761999965E0,9.423000336E0
2.940000000E2,-6.510000229E-1,1.264000058E0,7.814000130E0
2.950000000E2,-6.510000229E-1,5.740000010E-1,8.005999565E0
2.960000000E2,-1.493999958E0,-4.210000038E-1,1.275599957E1
2.970000000E2,-3.059999943E-1,1.761999965E0,1.022799969E1
2.980000000E2,-1.909999996E-1,1.072000027E0,8.274000168E0
2.990000000E2,3.799999878E-2,-4.979999959E-1,9.385000229E0
3.000000000E2,-3.440000117E-1,4.979999959E-1,1.122399998E1
3.010000000E2,-1.225000024E0,1.110000014E0,1.187500000E1
3.020000000E2,-3.059999943E-1,1.378999949E0,8.734000206E0
3.030000000E2,-6.119999886E-1,3.059999943E-1,8.696000099E0
3.040000000E2,-7.659999728E-1,9.570000172E-1,8.848999977E0
3.050000000E2,1.529999971E-1,1.378999949E0,1.045800018E1
3.060000000E2,-3.799999878E-2,9.570000172E-1,8.427000046E0
3.070000000E2,-3.440000117E-1,2.290000021E-1,9.461999893E0
3.080000000E2,-4.210000038E-1,-3.440000117E-1,1.195199966E1
3.090000000E2,-4.210000038E-1,8.809999824E-1,1.057299995E1
3.100000000E2,0.000000000E0,1.149000049E0,8.005999565E0
3.110000000E2,-3.059999943E-1,2.290000021E-1,9.154999733E0
3.120000000E2,-3.829999864E-1,-8.809999824E-1,1.087899971E1
3.130000000E2,-3.799999878E-2,1.225000024E0,1.179899979E1
3.140000000E2,-1.529999971E-1,1.646999955E0,9.652999878E0
3.150000000E2,-2.680000067E-1,1.608000040E0,8.312000275E0
3.160000000E2,9.190000296E-1,7.269999981E-1,8.541999817E0
3.170000000E2,0.000000000E0,-8.040000200E-1,1.275599957E1
3.180000000E2,1.909999996E-1,1.264000058E0,9.960000038E0
3.190000000E2,5.360000134E-1,7.599999756E-2,1.084099960E1
3.200000000E2,-7.599999756E-2,1.110000014E0,6.320000172E0
3.210000000E2,-1.909999996E-1,-7.599999756E-2,8.236000061E0
3.220000000E2,-8.809999824E-1,-8.420000076E-1,9.461999893E0
3.230000000E2,-5.360000134E-1,1.909999996E-1,1.283300018E1
3.240000000E2,8.420000076E-1,4.979999959E-1,1.206700039E1
3.250000000E2,1.140000001E-1,1.149000049E0,9.385000229E0
3.260000000E2,7.269999981E-1,1.110000014E0,7.125000000E0
3.270000000E2,6.510000229E-1,-5.360000134E-1,8.963999748E0
3.280000000E2,3.440000117E-1,-2.680000067E-1,9.920999527E0
3.290000000E2,-6.890000105E-1,-3.440000117E-1,1.202799988E1
3.300000000E2,-1.034000039E0,1.340000033E0,9.920999527E0
3.310000000E2,-4.210000038E-1,1.264000058E0,8.121000290E0
3.320000000E2,-4.210000038E-1,3.829999864E-1,7.890999794E0
3.330000000E2,-1.225000024E0,1.909999996E-1,7.967999935E0
3.340000000E2,-9.959999919E-1,-7.599999756E-2,9.845000267E0
3.350000000E2,1.909999996E-1,9.959999919E-1,1.168400002E1
3.360000000E2,3.440000117E-1,1.417000055E0,9.461999893E0
3.370000000E2,1.909999996E-1,1.608000040E0,7.163000107E0
3.380000000E2,-1.909999996E-1,3.440000117E-1,8.427000046E0
3.390000000E2,-1.529999971E-1,0.000000000E0,1.026599979E1
3.400000000E2,7.599999756E-2,1.034000039E0,1.126200008E1
3.410000000E2,-1.529999971E-1,1.302000046E0,9.767999649E0
3.420000000E2,7.599999756E-2,1.493999958E0,7.890999794E0
3.430000000E2,3.059999943E-1,3.799999878E-2,8.696000099E0
3.440000000E2,-6.119999886E-1,-1.529999971E-1,9.347000122E0
3.450000000E2,-3.440000117E-1,1.646999955E0,1.152999973E1
3.460000000E2,5.360000134E-1,9.570000172E-1,1.068799973E1
3.470000000E2,4.589999914E-1,1.225000024E0,8.925000191E0
3.480000000E2,1.140000001E-1,3.440000117E-1,8.656999588E0
3.490000000E2,6.119999886E-1,1.110000014E0,9.079000473E0
3.500000000E2,1.529999971E-1,1.187000036E0,1.130099964E1
3.510000000E2,-6.890000105E-1,1.646999955E0,9.385000229E0
3.520000000E2,-6.119999886E-1,1.149000049E0,7.967999935E0
3.530000000E2,-1.909999996E-1,3.059999943E-1,8.465999603E0
3.540000000E2,-8.040000200E-1,3.799999878E-2,1.107100010E1
3.550000000E2,3.059999943E-1,6.890000105E-1,1.130099964E1
3.560000000E2,1.909999996E-1,1.072000027E0,9.232000351E0
3.570000000E2,-4.979999959E-1,1.340000033E0,7.776000023E0
3.580000000E2,9.959999919E-1,6.890000105E-1,9.500000000E0
3.590000000E2,0.000000000E0,1.909999996E-1,1.168400002E1
3.600000000E2,-2.290000021E-1,6.510000229E-1,1.103199959E1
3.610000000E2,-7.599999756E-2,1.302000046E0,9.729999542E0
3.620000000E2,3.799999878E-2,8.420000076E-1,8.043999672E0
3.630000000E2,0.000000000E0,1.529999971E-1,8.427000046E0
3.640000000E2,-7.269999981E-1,-8.420000076E-1,1.034300041E1
3.650000000E2,1.529999971E-1,1.302000046E0,1.087899971E1
3.660000000E2,6.119999886E-1,1.340000033E0,8.581000328E0
3.670000000E2,2.680000067E-1,7.659999728E-1,8.503999710E0
3.680000000E2,1.529999971E-1,-1.302000046E0,9.307999611E0
3.690000000E2,2.290000021E-1,4.210000038E-1,1.015100002E1
3.700000000E2,-1.140000001E-1,1.187000036E0,1.072599983E1
3.710000000E2,-1.140000001E-1,2.144999981E0,9.883000374E0
3.720000000E2,1.909999996E-1,1.264000058E0,8.772000313E0
3.730000000E2,3.799999878E-2,1.072000027E0,8.043999672E0
3.740000000E2,-4.589999914E-1,9.959999919E-1,8.619000435E0
3.750000000E2,-2.290000021E-1,1.570000052E0,1.172200012E1
3.760000000E2,3.799999878E-2,1.914999962E0,9.729999542E0
3.770000000E2,2.680000067E-1,1.340000033E0,8.274000168E0
3.780000000E2,3.059999943E-1,-4.589999914E-1,8.925000191E0
3.790000000E2,6.119999886E-1,5.360000134E-1,1.026599979E1
3.800000000E2,1.909999996E-1,4.589999914E-1,1.133899975E1
3.810000000E2,-3.440000117E-1,1.531999946E0,9.347000122E0
3.820000000E2,-1.909999996E-1,1.225000024E0,8.541999817E0
3.830000000E2,-3.059999943E-1,2.680000067E-1,8.388999939E0
3.840000000E2,-1.140000001E-1,-6.890000105E-1,1.053400040E1
3.850000000E2,1.909999996E-1,9.570000172E-1,1.133899975E1
3.860000000E2,6.119999886E-1,1.110000014E0,1.026599979E1
3.870000000E2,4.589999914E-1,9.959999919E-1,8.312000275E0
3.880000000E2,-1.140000001E-1,-1.140000001E-1,9.001999855E0
3.890000000E2,7.659999728E-1,1.909999996E-1,9.270000458E0
3.900000000E2,3.440000117E-1,-1.225000024E0,1.237300014E1
3.910000000E2,-3.829999864E-1,1.072000027E0,1.026599979E1
3.920000000E2,-3.059999943E-1,6.510000229E-1,9.116999626E0
3.930000000E2,-1.140000001E-1,1.909999996E-1,8.388999939E0
3.940000000E2,3.799999878E-2,7.659999728E-1,7.431000233E0
3.950000000E2,-9.570000172E-1,-6.119999886E-1,9.729999542E0
3.960000000E2,1.529999971E-1,2.290000021E-1,1.191300011E1
3.970000000E2,5.360000134E-1,6.890000105E-1,1.064900017E1
3.980000000E2,7.599999756E-2,6.510000229E-1,9.116999626E0
3.990000000E2,2.290000021E-1,8.040000200E-1,8.121000290E0
4.000000000E2,3.799999878E-2,1.140000001E-1,8.465999603E0
4.010000000E2,5.360000134E-1,-4.589999914E-1,9.270000458E0
4.020000000E2,3.059999943E-1,-3.799999878E-2,1.191300011E1
4.030000000E2,0.000000000E0,8.040000200E-1,1.015100002E1
4.040000000E2,2.680000067E-1,1.140000001E-1,1.130099964E1
4.050000000E2,-1.909999996E-1,8.420000076E-1,1.003600025E1
4.060000000E2,3.059999943E-1,5.360000134E-1,8.656999588E0
4.070000000E2,1.140000001E-1,1.072000027E0,7.202000141E0
4.080000000E2,1.140000001E-1,-4.979999959E-1,9.154999733E0
4.090000000E2,2.680000067E-1,-1.187000036E0,1.034300041E1
4.100000000E2,5.740000010E-1,4.589999914E-1,1.179899979E1
4.110000000E2,-3.799999878E-2,1.909999996E-1,9.461999893E0
4.120000000E2,1.140000001E-1,3.059999943E-1,8.312000275E0
4.130000000E2,3.059999943E-1,3.059999943E-1,8.925000191E0
4.140000000E2,-2.680000067E-1,-4.979999959E-1,8.503999710E0
4.150000000E2,6.890000105E-1,1.034000039E0,1.152999973E1
4.160000000E2,8.809999824E-1,5.360000134E-1,9.538000107E0
4.170000000E2,4.589999914E-1,9.190000296E-1,6.933000088E0
4.180000000E2,1.034000039E0,-2.680000067E-1,8.810000420E0
4.190000000E2,4.979999959E-1,7.659999728E-1,1.057299995E1
4.200000000E2,1.140000001E-1,6.510000229E-1,1.064900017E1
4.210000000E2,1.140000001E-1,8.420000076E-1,8.274000168E0
4.220000000E2,3.440000117E-1,-5.360000134E-1,9.500000000E0
4.230000000E2,-5.740000010E-1,-9.190000296E-1,1.130099964E1
4.240000000E2,-1.140000001E-1,1.608000040E0,1.114700031E1
4.250000000E2,-1.140000001E-1,2.528000116E0,1.030500031E1
4.260000000E2,2.680000067E-1,1.455000043E0,9.001999855E0
4.270000000E2,-3.799999878E-2,1.570000052E0,7.890999794E0
4.280000000E2,-3.799999878E-2,6.890000105E-1,9.116999626E0
4.290000000E2,-3.799999878E-2,9.190000296E-1,1.126200008E1
4.300000000E2,7.599999756E-2,1.608000040E0,9.729999542E0
4.310000000E2,3.829999864E-1,1.302000046E0,7.776000023E0
4.320000000E2,-9.570000172E-1,1.140000001E-1,9.423000336E0
4.330000000E2,-6.510000229E-1,-2.680000067E-1,9.347000122E0
4.340000000E2,-4.210000038E-1,1.034000039E0,1.233500004E1
4.350000000E2,4.589999914E-1,1.952999949E0,9.500000000E0
4.360000000E2,3.440000117E-1,8.040000200E-1,8.043999672E0
4.370000000E2,-3.799999878E-2,1.529999971E-1,8.772000313E0
4.380000000E2,2.680000067E-1,-1.140000001E-1,1.053400040E1
4.390000000E2,-2.290000021E-1,4.979999959E-1,1.156900024E1
4.400000000E2,2.290000021E-1,1.264000058E0,9.500000000E0
4.410000000E2,-3.829999864E-1,9.190000296E-1,8.887000084E0
4.420000000E2,-2.290000021E-1,3.799999878E-2,9.116999626E0
4.430000000E2,-6.890000105E-1,-3.059999943E-1,1.068799973E1
4.440000000E2,1.034000039E0,6.890000105E-1,1.072599983E1
4.450000000E2,7.659999728E-1,7.269999981E-1,9.998000145E0
4.460000000E2,4.589999914E-1,4.210000038E-1,7.928999901E0
4.470000000E2,9.190000296E-1,7.269999981E-1,8.581000328E0
4.480000000E2,8.040000200E-1,-1.140000001E-1,1.068799973E1
4.490000000E2,-4.210000038E-1,1.264000058E0,9.767999649E0
4.500000000E2,2.680000067E-1,7.269999981E-1,8.581000328E0
4.510000000E2,-6.119999886E-1,7.269999981E-1,8.503999710E0
4.520000000E2,7.599999756E-2,-1.684999943E0,1.225800037E1
4.530000000E2,7.269999981E-1,8.809999824E-1,1.183699989E1
4.540000000E2,6.890000105E-1,1.264000058E0,8.887000084E0
4.550000000E2,3.059999943E-1,9.190000296E-1,8.121000290E0
4.560000000E2,1.149000049E0,-7.599999756E-2,7.967999935E0
4.570000000E2,4.210000038E-1,-7.269999981E-1,1.160700035E1
4.580000000E2,-6.510000229E-1,1.302000046E0,1.011299992E1
4.590000000E2,1.909999996E-1,2.290000021E-1,8.887000084E0
4.600000000E2,-2.680000067E-1,-1.909999996E-1,8.465999603E0
4.610000000E2,4.979999959E-1,-1.531999946E0,1.087899971E1
4.620000000E2,-4.589999914E-1,1.914999962E0,1.348400021E1
4.630000000E2,1.909999996E-1,4.589999914E-1,9.920999527E0
4.640000000E2,-3.059999943E-1,8.420000076E-1,8.350999832E0
4.650000000E2,3.059999943E-1,-3.799999878E-2,8.810000420E0
4.660000000E2,0.000000000E0,-1.529999971E-1,1.118599987E1
4.670000000E2,-3.440000117E-1,1.110000014E0,1.126200008E1
4.680000000E2,-6.119999886E-1,1.149000049E0,9.845000267E0
4.690000000E2,-6.510000229E-1,5.360000134E-1,8.005999565E0
4.700000000E2,-1.570000052E0,-5.360000134E-1,1.026599979E1
4.710000000E2,-4.589999914E-1,9.190000296E-1,1.145400047E1
4.720000000E2,7.599999756E-2,5.360000134E-1,9.729999542E0
4.730000000E2,-6.510000229E-1,1.570000052E0,8.005999565E0
4.740000000E2,5.360000134E-1,-1.140000001E-1,9.154999733E0
4.750000000E2,-3.799999878E-2,-3.799999878E-2,1.176000023E1
4.760000000E2,-6.510000229E-1,1.531999946E0,9.652999878E0
4.770000000E2,3.440000117E-1,9.190000296E-1,7.737999916E0
4.780000000E2,-1.909999996E-1,5.740000010E-1,8.121000290E0
4.790000000E2,-1.264000058E0,2.680000067E-1,1.126200008E1
4.800000000E2,5.740000010E-1,1.646999955E0,9.307999611E0
4.810000000E2,-4.589999914E-1,1.531999946E0,8.159000397E0
4.820000000E2,9.959999919E-1,-2.290000021E-1,1.068799973E1
4.830000000E2,-3.059999943E-1,1.034000039E0,1.091699982E1
4.840000000E2,-2.680000067E-1,1.378999949E0,9.729999542E0
4.850000000E2,-7.599999756E-2,1.264000058E0,8.159000397E0
4.860000000E2,4.210000038E-1,7.599999756E-2,8.465999603E0
4.870000000E2,-4.589999914E-1,4.210000038E-1,1.176000023E1
4.880000000E2,3.059999943E-1,1.723000050E0,9.461999893E0
4.890000000E2,2.680000067E-1,1.225000024E0,7.890999794E0
4.900000000E2,7.599999756E-2,-3.440000117E-1,9.538000107E0
4.910000000E2,0.000000000E0,-5.740000010E-1,1.110900021E1
4.920000000E2,-1.149000049E0,1.110000014E0,1.107100010E1
4.930000000E2,-5.740000010E-1,1.531999946E0,9.001999855E0
4.940000000E2,-9.959999919E-1,4.210000038E-1,9.538000107E0
4.950000000E2,-1.187000036E0,1.072000027E0,9.232000351E0
4.960000000E2,2.290000021E-1,3.829999864E-1,1.183699989E1
4.970000000E2,3.059999943E-1,9.570000172E-1,9.845000267E0
4.980000000E2,1.909999996E-1,9.570000172E-1,8.772000313E0
4.990000000E2,4.589999914E-1,-2.680000067E-1,9.767999649E0
5.000000000E2,3.829999864E-1,3.440000117E-1,9.998000145E0
5.010000000E2,-5.360000134E-1,1.110000014E0,1.087899971E1
5.020000000E2,-2.680000067E-1,1.531999946E0,9.692000389E0
5.030000000E2,-3.440000117E-1,8.040000200E-1,9.692000389E0
5.040000000E2,-1.529999971E-1,5.740000010E-1,7.277999878E0
5.050000000E2,-1.529999971E-1,-2.680000067E-1,8.656999588E0
5.060000000E2,-7.269999981E-1,-1.529999971E-1,9.960000038E0
5.070000000E2,-3.829999864E-1,-4.979999959E-1,1.290900040E1
5.080000000E2,1.909999996E-1,1.264000058E0,1.080300045E1
5.090000000E2,0.000000000E0,1.034000039E0,9.692000389E0
5.100000000E2,-3.059999943E-1,1.378999949E0,8.197999954E0
5.110000000E2,2.680000067E-1,-3.799999878E-2,9.116999626E0
5.120000000E2,3.059999943E-1,-9.190000296E-1,1.068799973E1
5.130000000E2,-2.290000021E-1,1.072000027E0,1.130099964E1
5.140000000E2,-4.210000038E-1,1.187000036E0,9.807000160E0
5.150000000E2,-2.290000021E-1,7.659999728E-1,8.197999954E0
5.160000000E2,4.210000038E-1,9.190000296E-1,7.623000145E0
5.170000000E2,-1.909999996E-1,2.290000021E-1,7.585000038E0
5.180000000E2,-4.979999959E-1,9.190000296E-1,1.122399998E1
5.190000000E2,4.979999959E-1,9.190000296E-1,1.030500031E1
5.200000000E2,1.529999971E-1,6.119999886E-1,9.270000458E0
5.210000000E2,-7.599999756E-2,8.040000200E-1,7.699999809E0
5.220000000E2,3.799999878E-2,-7.269999981E-1,9.232000351E0
5.230000000E2,4.979999959E-1,-2.290000021E-1,1.049600029E1
5.240000000E2,-1.140000001E-1,3.440000117E-1,1.152999973E1
5.250000000E2,-1.529999971E-1,6.510000229E-1,9.232000351E0
5.260000000E2,-2.290000021E-1,9.190000296E-1,7.699999809E0
5.270000000E2,3.799999878E-2,0.000000000E0,8.503999710E0
5.280000000E2,-7.659999728E-1,-1.187000036E0,1.130099964E1
5.290000000E2,2.680000067E-1,8.420000076E-1,1.095600033E1
5.300000000E2,3.799999878E-2,9.190000296E-1,9.845000267E0
5.310000000E2,3.829999864E-1,9.959999919E-1,7.202000141E0
5.320000000E2,5.360000134E-1,1.140000001E-1,8.810000420E0
5.330000000E2,6.119999886E-1,-1.529999971E-1,8.388999939E0
5.340000000E2,1.225000024E0,-5.360000134E-1,9.385000229E0
5.350000000E2,3.829999864E-1,5.740000010E-1,1.110900021E1
5.360000000E2,-1.140000001E-1,8.809999824E-1,1.015100002E1
5.370000000E2,1.140000001E-1,1.723000050E0,1.003600025E1
5.380000000E2,2.290000021E-1,9.959999919E-1,8.465999603E0
5.390000000E2,-1.140000001E-1,-4.210000038E-1,9.614999771E0
5.400000000E2,-9.570000172E-1,-7.269999981E-1,9.461999893E0
5.410000000E2,-4.210000038E-1,8.040000200E-1,1.064900017E1
5.420000000E2,-4.979999959E-1,6.119999886E-1,1.126200008E1
5.430000000E2,-3.799999878E-2,1.570000052E0,9.652999878E0
5.440000000E2,4.210000038E-1,8.809999824E-1,8.696000099E0
5.450000000E2,-2.290000021E-1,1.914999962E0,6.972000122E0
5.460000000E2,0.000000000E0,1.140000001E-1,9.001999855E0
5.470000000E2,7.269999981E-1,8.420000076E-1,1.026599979E1
5.480000000E2,2.680000067E-1,3.059999943E-1,1.233500004E1
5.490000000E2,-5.360000134E-1,9.570000172E-1,1.133899975E1
5.500000000E2,-2.290000021E-1,3.059999943E-1,1.152999973E1
5.510000000E2,-3.799999878E-2,8.420000076E-1,8.465999603E0
5.520000000E2,1.909999996E-1,1.149000049E0,6.129000187E0
5.530000000E2,-2.290000021E-1,-4.979999959E-1,8.963999748E0
5.540000000E2,-1.072000027E0,3.799999878E-2,8.388999939E0
5.550000000E2,-1.529999971E-1,-6.510000229E-1,1.061100006E1
5.560000000E2,2.680000067E-1,1.799999952E0,1.114700031E1
5.570000000E2,1.529999971E-1,1.991999984E0,9.232000351E0
5.580000000E2,-7.599999756E-2,1.378999949E0,8.043999672E0
5.590000000E2,-3.059999943E-1,1.149000049E0,7.737999916E0
5.600000000E2,-2.290000021E-1,-4.979999959E-1,1.080300045E1
5.610000000E2,4.589999914E-1,-5.360000134E-1,1.130099964E1
5.620000000E2,-2.680000067E-1,9.959999919E-1,1.248799992E1
5.630000000E2,-8.040000200E-1,7.659999728E-1,1.107100010E1
5.640000000E2,-1.140000001E-1,4.979999959E-1,8.848999977E0
5.650000000E2,-2.290000021E-1,9.959999919E-1,6.703999996E0
5.660000000E2,3.829999864E-1,-1.608000040E0,9.423000336E0
5.670000000E2,-7.269999981E-1,-1.646999955E0,1.041899967E1
5.680000000E2,-6.890000105E-1,-2.680000067E-1,1.302400017E1
5.690000000E2,7.659999728E-1,9.959999919E-1,1.030500031E1
5.700100000E2,6.510000229E-1,5.740000010E-1,9.270000458E0
5.710100000E2,-3.059999943E-1,7.269999981E-1,8.619000435E0
5.720100000E2,2.290000021E-1,-1.909999996E-1,9.692000389E0
5.730100000E2,2.680000067E-1,5.360000134E-1,1.049600029E1
5.740100000E2,-1.909999996E-1,7.269999981E-1,1.187500000E1
5.750100000E2,-6.510000229E-1,2.490000010E0,8.887000084E0
5.760100000E2,-1.529999971E-1,1.149000049E0,8.696000099E0
5.770100000E2,0.000000000E0,8.420000076E-1,8.083000183E0
5.780100000E2,-5.360000134E-1,1.140000001E-1,8.734000206E0
5.790100000E2,-6.890000105E-1,7.599999756E-2,1.068799973E1
5.800100000E2,-3.799999878E-2,1.952999949E0,1.168400002E1
5.810100000E2,1.529999971E-1,1.264000058E0,9.194000244E0
5.820100000E2,3.799999878E-2,9.570000172E-1,7.853000164E0
5.830100000E2,-3.829999864E-1,-6.890000105E-1,9.194000244E0
5.840100000E2,1.034000039E0,3.799999878E-2,9.270000458E0
5.850100000E2,1.149000049E0,-1.608000040E0,1.248799992E1
5.860100000E2,-5.740000010E-1,6.510000229E-1,1.084099960E1
5.870100000E2,-1.909999996E-1,7.269999981E-1,1.038099957E1
5.880100000E2,4.210000038E-1,1.034000039E0,7.585000038E0
5.890100000E2,0.000000000E0,-1.140000001E-1,8.925000191E0
5.900100000E2,-6.119999886E-1,3.799999878E-2,8.005999565E0
5.910100000E2,-4.979999959E-1,-1.529999971E-1,1.149199963E1
5.920100000E2,3.440000117E-1,8.040000200E-1,1.152999973E1
5.930100000E2,-2.290000021E-1,1.187000036E0,1.041899967E1
5.940100000E2,-3.799999878E-2,8.809999824E-1,8.772000313E0
5.950100000E2,0.000000000E0,4.210000038E-1,8.350999832E0
5.960100000E2,-1.529999971E-1,-4.589999914E-1,9.500000000E0
5.970100000E2,3.799999878E-2,-7.599999756E-2,9.883000374E0
5.980100000E2,-4.979999959E-1,1.149000049E0,1.126200008E1
5.990100000E2,-1.529999971E-1,1.149000049E0,1.030500031E1
6.000100000E2,-4.210000038E-1,1.455000043E0,8.005999565E0
6.010100000E2,-4.210000038E-1,-1.140000001E-1,9.039999962E0
6.020100000E2,-6.119999886E-1,0.000000000E0,8.427000046E0
6.030100000E2,1.909999996E-1,-7.599999756E-2,1.237300014E1
6.040100000E2,3.059999943E-1,1.838000059E0,9.845000267E0
6.050100000E2,1.529999971E-1,1.378999949E0,8.465999603E0
6.060100000E2,9.190000296E-1,1.140000001E-1,8.772000313E0
6.070100000E2,7.269999981E-1,8.040000200E-1,1.064900017E1
6.080100000E2,1.140000001E-1,4.979999959E-1,9.538000107E0
6.090200000E2,5.740000010E-1,-7.599999756E-2,9.729999542E0
6.100200000E2,-2.680000067E-1,6.890000105E-1,9.423000336E0
6.110200000E2,7.659999728E-1,1.110000014E0,9.461999893E0
6.120200000E2,3.829999864E-1,-4.589999914E-1,9.500000000E0
6.130200000E2,1.149000049E0,1.529999971E-1,1.038099957E1
6.140200000E2,-1.529999971E-1,3.829999864E-1,9.767999649E0
6.150200000E2,1.140000001E-1,6.510000229E-1,8.236000061E0
6.160200000E2,-4.210000038E-1,-1.072000027E0,1.007499981E1
6.170200000E2,2.680000067E-1,8.420000076E-1,1.152999973E1
6.180200000E2,-3.799999878E-2,1.417000055E0,9.079000473E0
6.190200000E2,-3.799999878E-2,7.269999981E-1,8.734000206E0
6.200200000E2,6.510000229E-1,1.417000055E0,8.925000191E0
6.210200000E2,4.589999914E-1,1.110000014E0,1.126200008E1
6.220200000E2,-8.040000200E-1,1.876999974E0,1.034300041E1
6.230200000E2,-3.799999878E-2,1.187000036E0,7.585000038E0
6.240200000E2,-3.059999943E-1,7.269999981E-1,8.350999832E0
6.250200000E2,-2.680000067E-1,1.761999965E0,9.998000145E0
6.260200000E2,4.589999914E-1,1.417000055E0,8.887000084E0
6.270200000E2,-1.140000001E-1,1.072000027E0,8.197999954E0
6.280200000E2,4.979999959E-1,-5.360000134E-1,9.385000229E0
6.290200000E2,1.140000001E-1,1.909999996E-1,1.149199963E1
6.300200000E2,-1.072000027E0,1.531999946E0,1.026599979E1
6.310200000E2,-1.909999996E-1,1.302000046E0,9.001999855E0
6.320200000E2,-3.440000117E-1,7.599999756E-2,9.307999611E0
6.330200000E2,-1.149000049E0,-3.440000117E-1,9.845000267E0
6.340200000E2,-1.140000001E-1,4.210000038E-1,1.141499996E1
6.350200000E2,4.589999914E-1,1.110000014E0,9.270000458E0
6.360200000E2,-1.529999971E-1,8.040000200E-1,8.121000290E0
6.370200000E2,1.187000036E0,-3.059999943E-1,9.194000244E0
6.380200000E2,1.529999971E-1,-4.210000038E-1,1.164500046E1
6.390200000E2,-3.829999864E-1,6.510000229E-1,1.114700031E1
6.400200000E2,0.000000000E0,4.589999914E-1,9.692000389E0
6.410200000E2,-7.599999756E-2,8.809999824E-1,7.125000000E0
6.420200000E2,-4.979999959E-1,6.119999886E-1,8.083000183E0
6.430200000E2,-6.119999886E-1,3.829999864E-1,1.126200008E1
6.440200000E2,0.000000000E0,1.340000033E0,1.030500031E1
6.450200000E2,1.140000001E-1,1.072000027E0,8.848999977E0
6.460200000E2,-3.440000117E-1,3.799999878E-2,8.619000435E0
6.470200000E2,9.959999919E-1,7.599999756E-2,8.503999710E0
6.480200000E2,4.210000038E-1,-4.589999914E-1,1.363700008E1
6.490200000E2,-6.119999886E-1,1.302000046E0,1.145400047E1
6.500200000E2,1.529999971E-1,8.040000200E-1,9.729999542E0
6.510200000E2,3.799999878E-2,9.190000296E-1,7.776000023E0
6.520200000E2,-4.979999959E-1,-2.680000067E-1,9.998000145E0
6.530200000E2,7.269999981E-1,1.072000027E0,1.091699982E1
6.540200000E2,1.529999971E-1,8.809999824E-1,8.925000191E0
6.550200000E2,-7.599999756E-2,8.040000200E-1,7.737999916E0
6.560200000E2,4.979999959E-1,-3.059999943E-1,1.114700031E1
6.570200000E2,7.599999756E-2,1.187000036E0,1.156900024E1
6.580200000E2,-6.510000229E-1,1.378999949E0,1.061100006E1
6.590200000E2,0.000000000E0,6.890000105E-1,9.270000458E0
6.600200000E2,3.799999878E-2,9.190000296E-1,6.817999840E0
6.610200000E2,-9.190000296E-1,-9.570000172E-1,9.307999611E0
6.620200000E2,-1.140000001E-1,-3.829999864E-1,1.179899979E1
6.630200000E2,2.290000021E-1,1.110000014E0,9.807000160E0
6.640200000E2,-2.290000021E-1,7.269999981E-1,7.814000130E0
6.650200000E2,-6.119999886E-1,9.570000172E-1,7.928999901E0
6.660200000E2,6.890000105E-1,-2.290000021E-1,9.347000122E0
6.670200000E2,-4.210000038E-1,1.187000036E0,1.099400043E1
6.680200000E2,-5.740000010E-1,8.420000076E-1,9.307999611E0
6.690200000E2,-2.290000021E-1,1.302000046E0,7.928999901E0
6.700200000E2,1.140000001E-1,7.269999981E-1,7.469999790E0
6.710200000E2,-1.225000024E0,-7.659999728E-1,9.767999649E0
6.720200000E2,-5.740000010E-1,6.510000229E-1,1.122399998E1
6.730200000E2,5.360000134E-1,1.225000024E0,9.960000038E0
6.740200000E2,4.589999914E-1,1.225000024E0,8.734000206E0
6.750200000E2,-2.290000021E-1,1.140000001E-1,7.814000130E0
6.760200000E2,1.187000036E0,-4.979999959E-1,9.729999542E0
6.770200000E2,8.420000076E-1,9.190000296E-1,1.130099964E1
6.780200000E2,-5.360000134E-1,1.302000046E0,9.920999527E0
6.790200000E2,-2.290000021E-1,1.072000027E0,8.503999710E0
6.800200000E2,-4.979999959E-1,-3.799999878E-2,8.388999939E0
6.810200000E2,-3.829999864E-1,-6.119999886E-1,1.076399994E1
6.820200000E2,5.360000134E-1,6.890000105E-1,1.187500000E1
6.830200000E2,1.909999996E-1,1.225000024E0,9.845000267E0
6.840200000E2,-7.599999756E-2,1.378999949E0,7.776000023E0
6.850200000E2,8.420000076E-1,3.440000117E-1,8.236000061E0
6.860200000E2,9.959999919E-1,-3.829999864E-1,1.187500000E1
6.870200000E2,-2.680000067E-1,1.455000043E0,9.767999649E0
6.880200000E2,0.000000000E0,8.809999824E-1,8.312000275E0
6.890200000E2,-1.909999996E-1,-3.799999878E-2,8.581000328E0
6.900200000E2,-9.959999919E-1,-1.149000049E0,1.126200008E1
6.910200000E2,4.210000038E-1,1.225000024E0,1.133899975E1
6.920200000E2,2.680000067E-1,8.809999824E-1,9.807000160E0
6.930200000E2,-1.529999971E-1,3.440000117E-1,7.776000023E0
6.940200000E2,1.034000039E0,1.529999971E-1,8.427000046E0
6.950200000E2,5.360000134E-1,3.799999878E-2,1.172200012E1
6.960200000E2,-3.440000117E-1,8.420000076E-1,9.883000374E0
6.970200000E2,2.290000021E-1,9.959999919E-1,7.814000130E0
6.980200000E2,-9.570000172E-1,-6.510000229E-1,9.039999962E0
6.990200000E2,-4.979999959E-1,-1.072000027E0,1.049600029E1
7.000200000E2,6.890000105E-1,8.040000200E-1,1.080300045E1
7.010200000E2,4.589999914E-1,6.890000105E-1,8.925000191E0
7.020200000E2,-1.909999996E-1,6.890000105E-1,7.853000164E0
7.030200000E2,7.659999728E-1,1.187000036E0,8.083000183E0
7.040200000E2,7.599999756E-2,4.589999914E-1,1.206700039E1
7.050200000E2,-4.589999914E-1,1.799999952E0,9.307999611E0
7.060200000E2,3.799999878E-2,7.659999728E-1,8.848999977E0
7.070200000E2,1.140000001E-1,4.979999959E-1,8.121000290E0
7.080200000E2,-6.890000105E-1,5.360000134E-1,9.307999611E0
7.090200000E2,-8.040000200E-1,1.072000027E0,1.183699989E1
7.100200000E2,2.290000021E-1,2.029999971E0,1.018999958E1
7.110200000E2,-1.140000001E-1,1.302000046E0,7.660999775E0
7.120200000E2,-4.979999959E-1,6.510000229E-1,8.848999977E0
7.130200000E2,1.110000014E0,7.269999981E-1,9.154999733E0
7.140200000E2,4.210000038E-1,6.119999886E-1,1.214299965E1
7.150200000E2,-3.799999878E-2,1.302000046E0,1.053400040E1
7.160200000E2,0.000000000E0,9.959999919E-1,1.015100002E1
7.170200000E2,0.000000000E0,1.264000058E0,6.703999996E0
7.180200000E2,-1.110000014E0,3.440000117E-1,8.503999710E0
7.190200000E2,-1.529999971E-1,1.529999971E-1,1.187500000E1
7.200200000E2,8.809999824E-1,5.740000010E-1,1.126200008E1
7.210200000E2,3.440000117E-1,6.119999886E-1,8.963999748E0
7.220200000E2,-3.829999864E-1,1.149000049E0,7.125000000E0
7.230200000E2,8.809999824E-1,-1.140000001E-1,8.848999977E0
7.240200000E2,3.799999878E-2,-2.290000021E-1,1.198999977E1
7.250200000E2,-2.680000067E-1,1.264000058E0,1.049600029E1
7.260200000E2,-2.290000021E-1,1.110000014E0,9.347000122E0
7.270200000E2,1.140000001E-1,1.493999958E0,6.664999962E0
7.280200000E2,-4.210000038E-1,-3.059999943E-1,9.385000229E0
7.290200000E2,-5.360000134E-1,-3.440000117E-1,1.156900024E1
7.300200000E2,4.589999914E-1,8.040000200E-1,1.053400040E1
7.310200000E2,3.059999943E-1,1.608000040E0,8.121000290E0
7.320200000E2,-3.059999943E-1,1.149000049E0,8.350999832E0
7.330200000E2,2.680000067E-1,7.269999981E-1,1.034300041E1
7.340200000E2,-7.269999981E-1,1.378999949E0,1.057299995E1
7.350200000E2,-7.599999756E-2,9.570000172E-1,9.232000351E0
7.360200000E2,-3.440000117E-1,1.187000036E0,7.469999790E0
7.370200000E2,-1.187000036E0,-3.799999878E-2,9.307999611E0
7.380200000E2,-6.890000105E-1,-1.340000033E0,1.176000023E1
7.390200000E2,1.529999971E-1,6.119999886E-1,1.068799973E1
7.400200000E2,4.210000038E-1,6.119999886E-1,9.538000107E0
7.410200000E2,0.000000000E0,1.149000049E0,7.393000126E0
7.420200000E2,1.646999955E0,-1.909999996E-1,8.083000183E0
7.430200000E2,4.589999914E-1,-1.608000040E0,1.237300014E1
7.440200000E2,-4.979999959E-1,1.187000036E0,1.053400040E1
7.450200000E2,3.059999943E-1,9.959999919E-1,9.652999878E0
7.460200000E2,-2.290000021E-1,1.646999955E0,7.585000038E0
7.470200000E2,-1.034000039E0,8.040000200E-1,8.734000206E0
7.480200000E2,-8.809999824E-1,1.952999949E0,1.095600033E1
7.490200000E2,1.149000049E0,2.259999990E0,1.026599979E1
7.500200000E2,9.959999919E-1,1.225000024E0,9.385000229E0
7.510200000E2,-6.119999886E-1,1.799999952E0,8.465999603E0
7.520200000E2,-1.909999996E-1,-3.059999943E-1,9.920999527E0
7.530200000E2,-3.799999878E-2,7.269999981E-1,1.038099957E1
7.540200000E2,7.599999756E-2,1.876999974E0,1.026599979E1
7.550200000E2,-4.589999914E-1,1.225000024E0,9.692000389E0
7.560200000E2,7.599999756E-2,3.059999943E-1,7.776000023E0
7.570200000E2,-1.493999958E0,2.680000067E-1,7.814000130E0
7.580200000E2,-9.570000172E-1,4.979999959E-1,1.103199959E1
7.590200000E2,4.589999914E-1,5.740000010E-1,1.061100006E1
7.600200000E2,-3.799999878E-2,9.190000296E-1,8.696000099E0
7.610200000E2,-5.360000134E-1,3.440000117E-1,8.503999710E0
7.620200000E2,3.440000117E-1,2.680000067E-1,1.049600029E1
7.630200000E2,-5.360000134E-1,2.029999971E0,1.076399994E1
7.640200000E2,-2.680000067E-1,1.493999958E0,1.053400040E1
7.650200000E2,1.140000001E-1,1.264000058E0,8.503999710E0
7.660200000E2,3.799999878E-2,1.140000001E-1,9.194000244E0
7.670200000E2,-2.290000021E-1,-3.059999943E-1,1.072599983E1
7.680200000E2,3.829999864E-1,1.034000039E0,1.152999973E1
7.690200000E2,8.420000076E-1,8.040000200E-1,9.423000336E0
7.700200000E2,7.599999756E-2,5.740000010E-1,8.503999710E0
7.710200000E2,2.290000021E-1,-3.440000117E-1,8.963999748E0
7.720200000E2,1.034000039E0,1.909999996E-1,9.883000374E0
7.730200000E2,3.440000117E-1,1.417000055E0,1.076399994E1
7.740200000E2,-1.529999971E-1,1.838000059E0,1.007499981E1
7.750200000E2,1.140000001E-1,1.264000058E0,8.005999565E0
7.760200000E2,-9.570000172E-1,3.440000117E-1,8.810000420E0
7.770200000E2,-5.740000010E-1,-3.440000117E-1,7.776000023E0
7.780200000E2,-1.455000043E0,7.599999756E-2,1.191300011E1
7.790200000E2,7.269999981E-1,8.809999824E-1,1.003600025E1
7.800200000E2,-1.529999971E-1,7.269999981E-1,8.541999817E0
7.810200000E2,-3.440000117E-1,3.059999943E-1,7.737999916E0
7.820200000E2,1.646999955E0,-4.979999959E-1,8.005999565E0
7.830200000E2,6.510000229E-1,0.000000000E0,1.107100010E1
7.840200000E2,-4.210000038E-1,8.809999824E-1,1.041899967E1
7.850200000E2,-1.140000001E-1,7.659999728E-1,9.461999893E0
7.860200000E2,-4.210000038E-1,2.680000067E-1,8.312000275E0
7.870200000E2,-5.740000010E-1,2.680000067E-1,8.656999588E0
7.880200000E2,-6.119999886E-1,-4.589999914E-1,1.271800041E1
7.890200000E2,4.589999914E-1,1.608000040E0,1.068799973E1
7.900200000E2,2.680000067E-1,1.417000055E0,8.887000084E0
7.910200000E2,5.740000010E-1,1.340000033E0,7.202000141E0
7.920200000E2,7.269999981E-1,-3.440000117E-1,9.001999855E0
7.930200000E2,3.799999878E-2,-1.909999996E-1,1.179899979E1
7.940200000E2,-5.360000134E-1,7.269999981E-1,1.110900021E1
7.950200000E2,-3.440000117E-1,9.959999919E-1,9.807000160E0
7.960200000E2,-1.140000001E-1,7.269999981E-1,8.197999954E0
7.970200000E2,-4.589999914E-1,-2.680000067E-1,8.619000435E0
7.980200000E2,-1.225000024E0,0.000000000E0,9.729999542E0
7.990200000E2,-5.740000010E-1,9.570000172E-1,1.141499996E1
8.000200000E2,5.740000010E-1,1.378999949E0,1.072599983E1
8.010200000E2,7.599999756E-2,1.302000046E0,9.270000458E0
8.020200000E2,-3.799999878E-2,1.570000052E0,7.086999893E0
8.030200000E2,6.510000229E-1,-6.890000105E-1,8.236000061E0
8.040200000E2,1.187000036E0,-3.059999943E-1,1.122399998E1
8.050200000E2,-3.059999943E-1,1.608000040E0,1.179899979E1
8.060200000E2,-5.360000134E-1,1.417000055E0,1.030500031E1
8.070200000E2,-3.059999943E-1,7.269999981E-1,8.963999748E0
8.080200000E2,2.680000067E-1,1.187000036E0,6.972000122E0
8.090200000E2,-2.290000021E-1,-5.360000134E-1,9.232000351E0
8.100200000E2,-8.040000200E-1,1.140000001E-1,1.072599983E1
8.110200000E2,1.340000033E0,1.952999949E0,1.087899971E1
8.120200000E2,4.210000038E-1,8.420000076E-1,1.022799969E1
8.130200000E2,2.680000067E-1,1.187000036E0,6.972000122E0
8.140200000E2,4.589999914E-1,-1.149000049E0,9.538000107E0
8.150200000E2,-1.529999971E-1,8.040000200E-1,9.652999878E0
8.160200000E2,-1.909999996E-1,-3.799999878E-2,1.202799988E1
8.170200000E2,-6.510000229E-1,1.952999949E0,9.920999527E0
8.180200000E2,-8.040000200E-1,1.187000036E0,1.003600025E1
8.190200000E2,-6.119999886E-1,1.531999946E0,7.660999775E0
8.200200000E2,-3.799999878E-2,1.072000027E0,7.047999859E0
8.210200000E2,-5.740000010E-1,0.000000000E0,7.431000233E0
8.220200000E2,-8.809999824E-1,-1.302000046E0,1.176000023E1
8.230200000E2,-6.890000105E-1,1.340000033E0,1.076399994E1
8.240200000E2,1.140000001E-1,1.378999949E0,1.007499981E1
8.250200000E2,-4.589999914E-1,1.187000036E0,8.427000046E0
8.260200000E2,-5.740000010E-1,1.340000033E0,7.890999794E0
8.270200000E2,0.000000000E0,-4.589999914E-1,1.076399994E1
8.280200000E2,0.000000000E0,7.599999756E-2,1.068799973E1
8.290200000E2,-1.909999996E-1,7.269999981E-1,1.099400043E1
8.300200000E2,-4.979999959E-1,1.340000033E0,9.576999664E0
8.310200000E2,-7.659999728E-1,9.190000296E-1,8.734000206E0
8.320200000E2,-3.799999878E-2,-3.799999878E-2,8.274000168E0
8.330200000E2,-9.190000296E-1,-1.140000001E-1,8.848999977E0
8.340200000E2,-1.264000058E0,1.909999996E-1,1.206700039E1
8.350200000E2,9.190000296E-1,6.119999886E-1,1.095600033E1
8.360200000E2,0.000000000E0,8.809999824E-1,9.883000374E0
8.370200000E2,1.909999996E-1,1.340000033E0,7.776000023E0
8.380200000E2,-7.599999756E-2,5.360000134E-1,8.619000435E0
8.390200000E2,-7.599999756E-2,1.187000036E0,1.038099957E1
8.400200000E2,9.959999919E-1,1.608000040E0,1.130099964E1
8.410200000E2,-9.190000296E-1,1.340000033E0,1.130099964E1
8.420200000E2,-5.740000010E-1,1.838000059E0,8.925000191E0
8.430200000E2,-1.529999971E-1,1.570000052E0,8.388999939E0
8.440200000E2,3.799999878E-2,1.723000050E0,6.933000088E0
8.450200000E2,-4.589999914E-1,3.829999864E-1,9.270000458E0
8.460200000E2,-1.761999965E0,1.110000014E0,1.091699982E1
8.470200000E2,-1.646999955E0,1.072000027E0,1.214299965E1
8.480200000E2,2.680000067E-1,1.264000058E0,1.122399998E1
8.490200000E2,5.740000010E-1,1.378999949E0,9.461999893E0
8.500200000E2,-3.059999943E-1,1.264000058E0,8.350999832E0
8.510200000E2,-1.034000039E0,1.761999965E0,6.703999996E0
8.520200000E2,-3.059999943E-1,-3.799999878E-2,8.503999710E0
8.530200000E2,8.420000076E-1,-1.187000036E0,1.057299995E1
8.540200000E2,5.740000010E-1,-3.829999864E-1,9.920999527E0
8.550200000E2,1.140000001E-1,-3.799999878E-2,1.187500000E1
8.560200000E2,-3.799999878E-2,1.646999955E0,1.122399998E1
8.570200000E2,-7.659999728E-1,2.029999971E0,9.998000145E0
8.580200000E2,-4.979999959E-1,1.493999958E0,7.814000130E0
8.590200001E2,-2.290000021E-1,1.225000024E0,7.776000023E0
8.600200001E2,-5.360000134E-1,1.302000046E0,7.431000233E0
8.610200001E2,2.680000067E-1,-5.740000010E-1,9.423000336E0
8.620200001E2,-1.110000014E0,1.140000001E-1,9.998000145E0
8.630200001E2,-1.302000046E0,6.119999886E-1,1.244999981E1
8.640200001E2,-3.440000117E-1,8.809999824E-1,1.210499954E1
8.650200001E2,-3.799999878E-2,8.809999824E-1,9.347000122E0
8.660200001E2,1.909999996E-1,1.034000039E0,8.236000061E0
8.670200001E2,-5.740000010E-1,-5.360000134E-1,8.619000435E0
8.680200001E2,8.809999824E-1,0.000000000E0,1.003600025E1
8.690200001E2,-4.589999914E-1,5.360000134E-1,1.179899979E1
8.700200001E2,-4.979999959E-1,1.187000036E0,9.270000458E0
8.710200001E2,-4.979999959E-1,7.269999981E-1,9.729999542E0
8.720200001E2,-3.440000117E-1,1.187000036E0,7.393000126E0
8.730200001E2,-5.360000134E-1,-4.210000038E-1,9.154999733E0
8.740200001E2,-5.740000010E-1,-4.589999914E-1,9.116999626E0
8.750200001E2,-2.680000067E-1,7.269999981E-1,1.195199966E1
8.760200001E2,1.529999971E-1,8.809999824E-1,1.252600002E1
8.770200001E2,1.140000001E-1,1.110000014E0,9.767999649E0
8.780200001E2,1.140000001E-1,7.659999728E-1,8.236000061E0
8.790200001E2,-4.979999959E-1,6.510000229E-1,7.546000004E0
8.800200001E2,0.000000000E0,2.290000021E-1,8.350999832E0
8.810200001E2,-3.799999878E-2,3.829999864E-1,1.018999958E1
8.820200001E2,9.190000296E-1,3.799999878E-2,1.122399998E1
8.830200001E2,-2.290000021E-1,1.110000014E0,9.538000107E0
8.840200001E2,7.599999756E-2,1.264000058E0,8.121000290E0
8.850200001E2,-1.187000036E0,1.302000046E0,9.307999611E0
8.860200001E2,3.799999878E-2,4.589999914E-1,9.538000107E0
